7530-728632
OS REV: 1.08 Sensor Cal: 1720594800 Averages: 30
Time (sec),  Bat (Volts),   T (deg C),  PAR (umol/(s m^2))  Ax (mg), Ay (mg), Az (mg)
1724369100, +3.50, +20.161,    +0.4,   -50.0,   +52.0,  -808.0
1724369160, +3.50, +20.237,    +0.3,   -16.0,   +80.0, -1112.0
1724369220, +3.50, +20.271,    +0.5,   -16.0,   +70.0, -1120.0
1724369280, +3.49, +20.304,    +0.5,   -24.0,   +84.0, -1100.0
1724369340, +3.49, +20.346,    +0.4,   -16.0,   +84.0, -1112.0
1724369400, +3.49, +20.363,    +0.3,   -26.0,   +88.0, -1068.0
1724369460, +3.49, +20.371,    +0.5,   -32.0,   +92.0, -1048.0
1724369520, +3.49, +20.380,    +0.5,   -20.0,   +84.0, -1108.0
